Wavelength,Reading
393.84,0.0063
394.84,0.0105
395.85,0.0113
396.85,0.00839
397.85,0.00967
398.86,0.01
399.86,0.00765
400.86,0.00628
401.86,0.01099
402.86,0.00967
403.87,0.0076
404.87,0.00627
405.87,0.00911
406.87,0.00693
407.87,0.00957
408.86,0.00818
409.86,0.00809
410.86,0.01079
411.86,0.00863
412.86,0.00901
413.86,0.00851
414.85,0.00966
415.85,0.00897
416.85,0.0081
417.84,0.00843
418.84,0.0102
419.83,0.00874
420.83,0.0099
421.82,0.00873
422.82,0.00938
423.81,0.0092
424.8,0.01024
425.8,0.00887
426.79,0.00984
427.78,0.00933
428.77,0.00935
429.76,0.0096
430.76,0.00943
431.75,0.01006
432.74,0.00893
433.73,0.01003
434.72,0.01067
435.71,0.01003
436.7,0.00991
437.69,0.00962
438.67,0.01009
439.66,0.01034
440.65,0.01036
441.64,0.01041
442.62,0.00968
443.61,0.01032
444.6,0.00992
445.58,0.01059
446.57,0.01097
447.55,0.01045
448.54,0.01027
449.52,0.01082
450.51,0.01064
451.49,0.01099
452.47,0.01068
453.46,0.01089
454.44,0.01093
455.42,0.01152
456.4,0.01096
457.39,0.01131
458.37,0.01095
459.35,0.01144
460.33,0.01151
461.31,0.01147
462.29,0.01146
463.27,0.01152
464.25,0.01179
465.23,0.01158
466.2,0.01177
467.18,0.01206
468.16,0.01216
469.14,0.01202
470.11,0.01226
471.09,0.0121
472.07,0.01212
473.04,0.01241
474.02,0.01243
474.99,0.01238
475.97,0.01257
476.94,0.0126
477.92,0.01265
478.89,0.01293
479.86,0.01308
480.84,0.01304
481.81,0.01302
482.78,0.01314
483.75,0.01299
484.73,0.01324
485.7,0.01325
486.67,0.01358
487.64,0.01374
488.61,0.01348
489.58,0.0136
490.55,0.01391
491.52,0.01388
492.49,0.01395
493.45,0.0141
494.42,0.01406
495.39,0.01402
496.36,0.01402
497.32,0.01402
498.29,0.01436
499.26,0.01419
500.22,0.01409
501.19,0.01406
502.15,0.01441
503.12,0.01466
504.08,0.01459
505.05,0.01483
506.01,0.01473
506.97,0.01488
507.94,0.01484
508.9,0.01494
509.86,0.01496
510.82,0.01501
511.78,0.01494
512.75,0.01498
513.71,0.01511
514.67,0.01507
515.63,0.01525
516.59,0.01531
517.55,0.01534
518.51,0.01557
519.46,0.01551
520.42,0.01538
521.38,0.01562
522.34,0.01572
523.29,0.01563
524.25,0.01567
525.21,0.01569
526.16,0.01563
527.12,0.01579
528.08,0.01596
529.03,0.01587
529.99,0.01606
530.94,0.01597
531.89,0.01608
532.85,0.01616
533.8,0.01628
534.75,0.01622
535.71,0.01619
536.66,0.0162
537.61,0.01633
538.56,0.01629
539.51,0.01641
540.46,0.01639
541.41,0.01645
542.36,0.01644
543.31,0.01651
544.26,0.01655
545.21,0.01645
546.16,0.01653
547.11,0.01661
548.06,0.01663
549.01,0.0166
549.95,0.01679
550.9,0.01668
551.85,0.01676
552.79,0.0168
553.74,0.01683
554.68,0.01684
555.63,0.01693
556.57,0.01687
557.52,0.01695
558.46,0.01689
559.4,0.01698
560.35,0.01714
561.29,0.01701
562.23,0.01709
563.18,0.01711
564.12,0.01703
565.06,0.01719
566,0.01722
566.94,0.01723
567.88,0.01717
568.82,0.01726
569.76,0.0173
570.7,0.01731
571.64,0.01729
572.58,0.01736
573.52,0.01737
574.45,0.01727
575.39,0.01735
576.33,0.0174
577.27,0.01753
578.2,0.01745
579.14,0.01745
580.07,0.01759
581.01,0.01747
581.94,0.01746
582.88,0.01754
583.81,0.01756
584.75,0.01765
585.68,0.01758
586.61,0.01756
587.55,0.01768
588.48,0.01764
589.41,0.0178
590.34,0.01786
591.27,0.01777
592.21,0.01777
593.14,0.01778
594.07,0.01787
595,0.0179
595.93,0.01783
596.86,0.01791
597.78,0.01789
598.71,0.01781
599.64,0.01793
600.57,0.01796
601.5,0.01799
602.42,0.01795
603.35,0.0181
604.28,0.01796
605.2,0.01791
606.13,0.01806
607.05,0.01802
607.98,0.01799
608.9,0.01817
609.83,0.01809
610.75,0.01809
611.68,0.01819
612.6,0.01811
613.52,0.01809
614.44,0.01828
615.37,0.01816
616.29,0.0182
617.21,0.01825
618.13,0.01827
619.05,0.01823
619.97,0.0183
620.89,0.01825
621.81,0.0183
622.73,0.01834
623.65,0.01833
624.57,0.01833
625.49,0.01829
626.4,0.01834
627.32,0.01842
628.24,0.01837
629.15,0.01838
630.07,0.01839
630.99,0.01856
631.9,0.01849
632.82,0.01851
633.73,0.01851
634.65,0.01856
635.56,0.01846
636.48,0.01856
637.39,0.0186
638.3,0.01864
639.21,0.01861
640.13,0.01859
641.04,0.01866
641.95,0.0187
642.86,0.01864
643.77,0.01865
644.68,0.01878
645.59,0.01875
646.5,0.01876
647.41,0.01883
648.32,0.01889
649.23,0.01872
650.14,0.01885
651.05,0.01885
651.96,0.01871
652.86,0.01889
653.77,0.01893
654.68,0.01893
655.58,0.01899
656.49,0.01904
657.4,0.01901
658.3,0.019
659.21,0.019
660.11,0.01913
661.01,0.01903
661.92,0.01905
662.82,0.01896
663.72,0.01911
664.63,0.0191
665.53,0.01915
666.43,0.01921
667.33,0.01907
668.23,0.01919
669.14,0.01913
670.04,0.01925
670.94,0.01926
671.84,0.01937
672.74,0.01929
673.64,0.01926
674.53,0.01944
675.43,0.01938
676.33,0.01945
677.23,0.0193
678.13,0.01942
679.02,0.01944
679.92,0.01956
680.82,0.01946
681.71,0.01949
682.61,0.01955
683.5,0.01963
684.4,0.01952
685.29,0.01964
686.19,0.01954
687.08,0.01964
687.97,0.0197
688.87,0.0197
689.76,0.0197
690.65,0.01965
691.54,0.01966
692.44,0.01979
693.33,0.01979
694.22,0.01986
695.11,0.01993
696,0.01982
696.89,0.02
697.78,0.01997
698.67,0.01988
699.56,0.02004
700.44,0.01999
701.33,0.02004
702.22,0.02001
703.11,0.01995
703.99,0.01997
704.88,0.02011
705.77,0.0201
706.65,0.02017
707.54,0.02019
708.42,0.02019
709.31,0.02015
710.19,0.02024
711.08,0.02033
711.96,0.02027
712.84,0.02033
713.73,0.02032
714.61,0.02026
715.49,0.02041
716.37,0.02058
717.26,0.02049
718.14,0.02056
719.02,0.02052
719.9,0.02047
720.78,0.0206
721.66,0.02056
722.54,0.02062
723.42,0.02061
724.3,0.02065
725.17,0.02074
726.05,0.02076
726.93,0.02079
727.81,0.02077
728.68,0.02075
729.56,0.02077
730.44,0.02083
731.31,0.02092
732.19,0.02088
733.06,0.02105
733.94,0.02094
734.81,0.02094
735.69,0.02094
736.56,0.02107
737.43,0.02105
738.31,0.02117
739.18,0.02117
740.05,0.02121
740.92,0.02119
741.79,0.02134
742.67,0.02122
743.54,0.02111
744.41,0.02126
745.28,0.02136
746.15,0.02124
747.02,0.0214
747.89,0.02141
748.75,0.02134
749.62,0.02148
750.49,0.02151
751.36,0.02164
752.23,0.02162
753.09,0.02163
753.96,0.02171
754.83,0.02174
755.69,0.0217
756.56,0.02173
757.42,0.02186
758.29,0.0218
759.15,0.02177
760.01,0.02186
760.88,0.02188
761.74,0.02183
762.6,0.02195
763.47,0.02186
764.33,0.02194
765.19,0.0221
766.05,0.02209
766.91,0.02215
767.78,0.02216
768.64,0.02214
769.5,0.02217
770.36,0.02221
771.21,0.02219
772.07,0.02222
772.93,0.02237
773.79,0.02223
774.65,0.02232
775.51,0.02233
776.36,0.02243
777.22,0.02248
778.08,0.02252
778.93,0.02255
779.79,0.02264
780.64,0.0224
781.5,0.0226
782.35,0.02251
783.21,0.02255
784.06,0.02268
784.92,0.02266
785.77,0.02282
786.62,0.02266
787.47,0.02297
788.33,0.02286
789.18,0.02289
790.03,0.02287
790.88,0.0228
791.73,0.02305
792.58,0.0232
793.43,0.0232
794.28,0.02316
795.13,0.02316
795.98,0.02322
796.83,0.02331
797.68,0.02321
798.53,0.02332
799.37,0.02329
800.22,0.02338
801.07,0.02349
801.91,0.02361
802.76,0.02362
803.61,0.02356
804.45,0.02357
805.3,0.02367
806.14,0.02369
806.98,0.02375
807.83,0.02383
808.67,0.02368
809.52,0.0237
810.36,0.02385
811.2,0.02385
812.04,0.0239
812.89,0.02395
813.73,0.02406
814.57,0.02407
815.41,0.02407
816.25,0.02404
817.09,0.02434
817.93,0.02422
818.77,0.02432
819.61,0.02402
820.45,0.02436
821.28,0.02432
822.12,0.02443
822.96,0.0244
823.8,0.02451
824.63,0.02434
825.47,0.0245
826.31,0.02461
827.14,0.02455
827.98,0.02456
828.81,0.02473
829.65,0.02452
830.48,0.02477
831.31,0.02474
832.15,0.02463
832.98,0.02489
833.81,0.02486
834.65,0.02488
835.48,0.02502
836.31,0.025
837.14,0.02505
837.97,0.02518
838.8,0.02523
839.63,0.02502
840.46,0.02524
841.29,0.02537
842.12,0.02524
842.95,0.02526
843.78,0.02553
844.61,0.02531
845.44,0.02536
846.26,0.02574
847.09,0.02545
847.92,0.02552
848.74,0.0256
849.57,0.02571
850.4,0.02558
851.22,0.02555
852.05,0.0257
852.87,0.02587
853.69,0.02592
854.52,0.02592
855.34,0.0258
856.17,0.02616
856.99,0.02603
857.81,0.02598
858.63,0.02601
